Folder: chalcogenide_perovskite/Ba3Zr2S7_P42_mnm

Note: README.md
# chalcogenide_perovskite.github.io

File: Ba3Zr2S7_P42_mnm_IR_Raman.txt
Mode number      Frequency [cm^(-1)]   Zero point energy [eV]   IR-intensity [D^2/A^2*amu]     Raman-intensity [Ang^4/amu]
          1              -0.01669009              -0.00000103          397272               0.00000000
          2              -0.00791192              -0.00000049            4314.28               0.00000000
          3              -0.00572696              -0.00000036           54936.3               0.00000002
          4              47.179               0.00292473           25063.4               0.00000006
          5              47.1954               0.00292574           15104.6               0.00000003
          6              59.02               0.00365877               0.00072519               3.32585
          7              59.0338               0.00365963               0.00030626               3.32586
          8              84.4325               0.00523415           61023.9               0.00000000
          9              84.4512               0.00523531           56487.5               0.00000000
         10             118.939               0.00737329               0.05988736               5.01166
         11             120.03               0.00744092          162363               0.00000187
         12             120.033               0.00744108           60659.5               0.00000010
         13             126.999               0.00787293               0.00051662               0.06381308
         14             127               0.00787297               0.00046041               0.06380691
         15             132.456               0.00821126          286812               0.00000002
         16             144.222               0.00894062          417205               0.00000000
         17             167.896               0.01040821         1.2533e+06               0.00000000
         18             276.463               0.01713855          273006               0.00000000
         19             322.742               0.02000744               0.00184115             811.138
         20             383.114               0.02375004         1.44295e+06               0.00000000
         21             383.114               0.02375006         1.04137e+06               0.00000000