Folder: chalcogenide_perovskite/Ba3Zr2S7_I4_mmm

Note: README.md
# chalcogenide_perovskite.github.io

File: Ba3Zr2S7_I4_mmm_IR_Raman.txt
Mode number      Frequency [cm^(-1)]   Zero point energy [eV]   IR-intensity [D^2/A^2*amu]     Raman-intensity [Ang^4/amu]
          1             -41.3634              -0.00256420         2.96672e+06             124.246
          2             -41.3588              -0.00256392          179234             124.247
          3             -23.8161              -0.00147641           72449.7               0.00008798
          4             -23.8099              -0.00147603          308332               0.00008412
          5              -0.102945              -0.00000638         5.21791e+06               0.00001765
          6              -0.07709140              -0.00000478           95407.5               0.00001776
          7              -0.01465860              -0.00000091        6.29359e+07               0.00007297
          8              11.8214               0.00073283         3.59267e+06               7.52176
          9              11.833               0.00073355          193281               7.52042
         10              18.5693               0.00115115         8.4455e+06               0.00021142
         11              18.5831               0.00115201         1.5197e+06               0.00007530
         12              27.7099               0.00171779         7.25797e+06               0.00001303
         13              32.3866               0.00200772          126712               0.00005116
         14              32.4946               0.00201441          698480               0.00006050
         15              53.2115               0.00329869           10285.3               2.14946
         16              53.2283               0.00329974            1983.12               2.15138
         17              57.1462               0.00354261         4.27804e+06             626.539
         18              85.6402               0.00530901        5.34975e+07               0.00000066
         19              90.7451               0.00562548         8.1235e+06               0.00003572
         20              96.6165               0.00598946          275202             616.516
         21             101.097               0.00626723           38958             107.54
         22             119.416               0.00740288          287671               0.00008645
         23             159.211               0.00986981          373964               0.00000147
         24             162.297               0.01006112             650.068              44.2833
         25             169.572               0.01051213             632.393              10.252
         26             169.572               0.01051215              24.5728              10.2518
         27             170.225               0.01055260        1.95342e+07               0.00014735
         28             170.226               0.01055265         8.20005e+06               0.00003574
         29             170.682               0.01058094          245018               0.00039627
         30             170.687               0.01058125         5.00462e+06               0.00003051
         31             237.985               0.01475318         1.58891e+06               0.00004876
         32             241.917               0.01499692         5.87389e+06           23991.5
         33             355.556               0.02204163         2.44122e+06            3575.36
         34             355.557               0.02204171         4.42791e+06            3575.36
         35             356.178               0.02208020        7.57467e+07               0.00008089
         36             356.178               0.02208025        2.89218e+07               0.00030966