Folder: chalcogenide_perovskite/BaS2_C2_c

Note: README.md
# chalcogenide_perovskite.github.io

File: BaS2_C2_c_IR_Raman.txt
Mode number      Frequency [cm^(-1)]   Zero point energy [eV]   IR-intensity [D^2/A^2*amu]     Raman-intensity [Ang^4/amu]
          1              -0.00821478              -0.00000051               0.00000002               0.00000002
          2              -0.00554009              -0.00000034               0.00000000               0.00000000
          3              -0.00344135              -0.00000021               0.00000000               0.00000000
          4              67.5192               0.00418566               0.00000005               4.98374
          5              84.3364               0.00522819               0.00000393               2.81355
          6              85.5435               0.00530302               1.85708               0.00000493
          7             106.772               0.00661904               1.37863               0.00000011
          8             137.275               0.00850999               0.00000006               3.84644
          9             157.74               0.00977864               8.12342               0.00001304
         10             168.603               0.01045204               0.00000135             220.888
         11             168.627               0.01045354               0.00000089             240.433
         12             171.145               0.01060967               6.88397               0.00002615
         13             171.392               0.01062497               5.10516               0.00010475
         14             181.383               0.01124430               0.00000020             129.877
         15             186.726               0.01157555               0.749812               0.00004538
         16             190.426               0.01180488               0.00000025            1118.29
         17             453.474               0.02811181               0.00000000            9388.21
         18             455.371               0.02822939               0.00000000           20593.4