Folder: chalcogenide_perovskite/BaS3_P-42_1m

Note: README.md
# chalcogenide_perovskite.github.io

File: BaS3_P-42_1m_IR_Raman.txt
Mode number      Frequency [cm^(-1)]   Zero point energy [eV]   IR-intensity [D^2/A^2*amu]     Raman-intensity [Ang^4/amu]
          1              -0.03074179              -0.00000191           17391               0.00000533
          2              -0.02963424              -0.00000184            2994.18               0.00009094
          3              -0.02763586              -0.00000171           18224.3               0.00000043
          4              82.0509               0.00508651               0.01924020               1.18382
          5              83.5469               0.00517925           25779.1               5.96272
          6              83.5486               0.00517935           25782.5               5.96338
          7             104.738               0.00649295           20561.3               0.05331860
          8             104.741               0.00649313           20557.5               0.05301800
          9             107.927               0.00669063               0.00979494              69.564
         10             130.055               0.00806239              13.2707               4.81855
         11             157.563               0.00976765            3798.71              23.8756
         12             157.564               0.00976770            3798.35              23.8767
         13             169.825               0.01052784            3088.75               1.04362
         14             169.828               0.01052796            3090.15               1.04236
         15             197.757               0.01225940               0.02090018             146.522
         16             208.294               0.01291256            4648.78               3.36131
         17             208.295               0.01291264            4648.12               3.36105
         18             218.282               0.01353177               0.09218568               0.00000083
         19             221.725               0.01374517               0.201906             542.177
         20             224.15               0.01389555               0.178459             196.827
         21             448.902               0.02782839               0.392664            1370.02
         22             453.417               0.02810829               0.163164            2361.84
         23             470.648               0.02917645            2259.35             113.319
         24             470.648               0.02917648            2259.36             113.319