Folder: chalcogenide_perovskite/BaZrS3_Pnma

Note: README.md
# chalcogenide_perovskite.github.io

File: BaZrS3_Pnma_IR_Raman.txt
Mode number      Frequency [cm^(-1)]   Zero point energy [eV]   IR-intensity [D^2/A^2*amu]     Raman-intensity [Ang^4/amu]
          1              -0.08135362              -0.00000504           19890.7               0.00000016
          2              -0.00970453              -0.00000060           21288.1               0.00000005
          3              -0.00831818              -0.00000052           20301.7               0.00000001
          4              48.1277               0.00298354            4748.03               0.00000122
          5              51.3142               0.00318108               0.00053563               0.00000751
          6              58.849               0.00364817               0.00930116              59.3754
          7              61.2882               0.00379939               0.00847347               0.00000412
          8              61.8506               0.00383425            1174.02               0.00000212
          9              65.4067               0.00405470           11022.4               0.00127855
         10              65.6458               0.00406952               0.184058             100.998
         11              67.2382               0.00416823            1034.08               0.00000084
         12              69.0183               0.00427859               0.00008022               0.00000919
         13              75.6972               0.00469263           11080               0.00000213
         14              77.8283               0.00482474               0.03182870              47.4492
         15              78.6851               0.00487786               0.00052509               0.184661
         16              82.0797               0.00508829            6537.48               0.00000324
         17              82.6705               0.00512492               0.00995237              36.5139
         18              85.0814               0.00527437               0.00044336               4.70814
         19              93.0419               0.00576786               0.03794942              70.6459
         20              98.0336               0.00607731               0.07001766             363.5
         21             111.559               0.00691575               0.00547708               6.14544
         22             114.128               0.00707504               0.00013982               0.00000131
         23             115.536               0.00716229             190.846               0.00000099
         24             117.134               0.00726136            1027.99               0.00000165
         25             119.72               0.00742171             651.842               0.00000012
         26             130.882               0.00811365             123.981               0.00000032
         27             134.584               0.00834317             526.801               0.00000007
         28             136.908               0.00848718              51.7624               0.00001059
         29             141.864               0.00879445               0.594642            1571.7
         30             146.058               0.00905443               0.00000514               0.00001041
         31             156.744               0.00971688             865.359               0.00000015
         32             159.552               0.00989095            4567.97               0.00000016
         33             162.739               0.01008853               0.00000378               0.405595
         34             168.621               0.01045317               0.08068299             398.178
         35             171.733               0.01064610               0.195918               2.01773
         36             174.548               0.01082059            2978.65               0.00000001
         37             175.716               0.01089302               0.512053               1.85091
         38             177.359               0.01099483             148.767               0.00000001
         39             206.822               0.01282132               0.03307219             130.681
         40             208.319               0.01291412               0.00000505             103.848
         41             212.827               0.01319359               0.151503            1499.55
         42             220.541               0.01367178               0.00807461             998.321
         43             221.785               0.01374892             611.856               0.00001163
         44             223.494               0.01385489               0.00000635               0.00000012
         45             228.216               0.01414759           11433.1               0.00000017
         46             229.01               0.01419679            2486.02               0.00000013
         47             229.299               0.01421475           12902.2               0.00000016
         48             250.355               0.01552001           12182.9               0.00000005
         49             293.85               0.01821638              53.7007               0.00000001
         50             296.432               0.01837647               0.01951370               0.701368
         51             296.8               0.01839925               0.00003565               0.01300795
         52             297.137               0.01842013            1110.43               0.00000000
         53             298.005               0.01847396               0.00000491               0.00000000
         54             301.882               0.01871431               0.00000204               0.00000008
         55             302.706               0.01876539            1080.08               0.00000008
         56             307.629               0.01907055            1317.83               0.00000039
         57             310.008               0.01921805               0.03129349             816.429
         58             396.813               0.02459924               0.07059916              64.424
         59             409.295               0.02537303               0.03800808               6.52006
         60             428.271               0.02654940               0.00000002               0.295666