Folder: chalcogenide_perovskite/ZrS2_P-3m1

Note: README.md
# chalcogenide_perovskite.github.io

File: ZrS2_P-3m1_IR_Raman.txt
Mode number      Frequency [cm^(-1)]   Zero point energy [eV]   IR-intensity [D^2/A^2*amu]     Raman-intensity [Ang^4/amu]
          1              -0.06447939              -0.00000400             727.692               0.00000000
          2              -0.06205273              -0.00000385             727.697               0.00000000
          3              -0.00323166              -0.00000020             727.673               0.00000000
          4              99.1129               0.00614422               0.490064               0.00000000
          5              99.2286               0.00615139               0.751183               0.00000000
          6             253.125               0.01569173               0.00000000             410.208
          7             253.131               0.01569210               0.00000000             411.573
          8             322.681               0.02000367               0.00000000           11153.6
          9             330.084               0.02046260               1.45682               0.00000192