Folder: chalcogenide_perovskite/ZrS3_P2_1m

Note: README.md
# chalcogenide_perovskite.github.io

File: ZrS3_P2_1_m_IR_Raman.txt
Mode number      Frequency [cm^(-1)]   Zero point energy [eV]   IR-intensity [D^2/A^2*amu]     Raman-intensity [Ang^4/amu]
          1              -0.00864783              -0.00000054            1802.02               0.00000000
          2              -0.00176478              -0.00000011            1802.07               0.00000000
          3              -0.00166643              -0.00000010            1802.08               0.00000000
          4              73.394               0.00454985               0.00000019               6.91651
          5              78.9322               0.00489318               1.22145               0.00000001
          6              92.2216               0.00571701               0.00000018               5.67529
          7             109.987               0.00681835               0.00000014               4.49433
          8             134.14               0.00831564               0.00031491               0.00000000
          9             138.83               0.00860637               0.00000000             184.78
         10             145.561               0.00902362               0.00000000             703.633
         11             212.943               0.01320081               0.00000000             894.718
         12             215.317               0.01334792               0.00512566               0.00000001
         13             242.005               0.01500240               1.55777               0.00000085
         14             243.231               0.01507838               0.177052               0.00025098
         15             243.543               0.01509775               0.00000014             261.693
         16             274.515               0.01701775               2.47446               0.00000340
         17             274.664               0.01702701               0.00000010              87.3538
         18             277.993               0.01723336               0.00000000            1906.58
         19             312.54               0.01937498               1.13134               0.00000120
         20             318.195               0.01972555               0.00000000            3761.96
         21             331.285               0.02053704               0.00000000             162.927
         22             349.386               0.02165918               4.78449               0.00000001
         23             523.671               0.03246346               2.6527               0.00000004
         24             526.9               0.03266362               0.00000000           12473.7