Folder: chalcogenide_perovskite/ZrS_P4_nmm

Note: README.md
# chalcogenide_perovskite.github.io

File: ZrS_P4_nmm_IR_Raman.txt
Mode number      Frequency [cm^(-1)]   Zero point energy [eV]   IR-intensity [D^2/A^2*amu]     Raman-intensity [Ang^4/amu]
          1              -0.01009547              -0.00000063            1117.24               0.00022754
          2              -0.00435010              -0.00000027            1052.21               0.00019462
          3              -0.00268509              -0.00000017            1052.56               0.00006078
          4              22.8878               0.00141886            3610.94            5752.93
          5              22.8996               0.00141959            3610.68            5752.94
          6             141.613               0.00877887               0.00000010          155571
          7             229.13               0.01420422           48711.3               0.00000093
          8             249.932               0.01549383               0.00000010          448465
          9             312.094               0.01934734            1665.14             317.475
         10             312.095               0.01934742            1665.15             317.46
         11             334.57               0.02074072             511.392               0.00000007
         12             334.573               0.02074087             511.416               0.00000003